File: Xie_cube150_Slump.csv
SiO2;Al2O3;Fe2O3;CaO;MgO;Na2O;K2O;SO3;Fine modulus (m2/kg);Specific gravity;Cement (kg/m3);FA (kg/m3);GGBFS (kg/m3);Coarse aggregate (kg/m3);Fine aggregate (kg/m3);Total aggregates (kg/m3);Na2SiO3 (liquid);NaOH (liquid);Total solution;Na2O (l);SiO2 (l);Superplasticizer;water -eff;Initial curing time (day);Initial curing temp (Â°C);28-d cubic compressive strength (MPa);Slump (mm)
60;22,7;4,6;4,5;1;0,7;2;0,5;350;2,4;0;480;0;960;720;1680;36;204;36;8,2;27;0;127,776;2;90;50,5723;188
58,519;22,0175;4,561;6,569;1,2195;0,691;1,9155;0,5455;348,5;2,42;0;456;24;960;720;1680;36;204;36;8,2;27;0;127,776;2;90;52,4623;163
57,038;21,335;4,522;8,638;1,439;0,682;1,831;0,591;347;2,44;0;432;48;960;720;1680;36;204;36;8,2;27;0;127,776;2;90;54,038;149
55,557;20,6525;4,483;10,707;1,6585;0,673;1,7465;0,6365;345,5;2,46;0;408;72;960;720;1680;36;204;36;8,2;27;0;127,776;2;90;54,9791;138
53,59;28,46;8,71;4,23;1,84;0,58;1,63;0,96;272;2,33;0;310;0;1204;649;1853;122;49;122,1428571;16,2;34,72;6,2;92,982;1;80;44,876;80
52,091;27,3215;8,4275;7,152;1,797;0,565;1,5865;0,912;273,75;2,3695;15,5;294,5;0;1204;649;1853;122;49;122,1428571;16,2;34,72;6,2;92,982;1;80;47,8512;74
50,592;26,183;8,145;10,074;1,754;0,55;1,543;0,864;275,5;2,409;31;279;0;1204;649;1853;122;49;122,1428571;16,2;34,72;6,2;92,982;1;80;55,0413;65
49,093;25,0445;7,8625;12,996;1,711;0,535;1,4995;0,816;277,25;2,4485;46,5;263,5;0;1204;649;1853;122;49;122,1428571;16,2;34,72;6,2;92,982;1;80;60,4959;59
47,594;23,906;7,58;15,918;1,668;0,52;1,456;0,768;279;2,488;62;248;0;1204;649;1853;122;49;122,1428571;16,2;34,72;6,2;92,982;1;80;64,7107;55
46,095;22,7675;7,2975;18,84;1,625;0,505;1,4125;0,72;280,75;2,5275;77,5;232,5;0;1204;649;1853;122;49;122,1428571;16,2;34,72;6,2;92,982;1;80;63,719;52
44,596;21,629;7,015;21,762;1,582;0,49;1,369;0,672;282,5;2,567;93;217;0;1204;649;1853;122;49;122,1428571;16,2;34,72;6,2;92,982;1;80;61,7355;50
52,295;24,571;3,215;12,58;3,242;0,154;0,245;0,27;393,8;2,389;0;252;108;1090,8;774;1864,8;115,7142857;46,28571429;115,7142857;11,5;30;14,4;107,8071429;0;25;33,8369;95
52,295;24,571;3,215;12,58;3,242;0,154;0,245;0,27;393,8;2,389;0;252;108;1090,8;774;1864,8;128,5714286;51,42857143;128,5714286;11,5;30;14,4;118,8257143;0;25;36,1631;102
52,295;24,571;3,215;12,58;3,242;0,154;0,245;0,27;393,8;2,389;0;252;108;1090,8;774;1864,8;141,4285714;56,57142857;141,4285714;11,5;30;14,4;129,8442857;0;25;31,0876;115
52,295;24,571;3,215;12,58;3,242;0,154;0,245;0,27;393,8;2,389;0;252;108;1090,8;774;1864,8;154,2857143;61,71428571;154,2857143;11,5;30;14,4;140,8628571;0;25;25,8006;180
52,295;24,571;3,215;12,58;3,242;0,154;0,245;0,27;393,8;2,389;0;294;126;966;810,6;1776,6;135;54;135;11,5;30;16,8;125,775;0;25;36,7598;84
52,295;24,571;3,215;12,58;3,242;0,154;0,245;0,27;393,8;2,389;0;294;126;966;810,6;1776,6;150;60;150;11,5;30;16,8;138,63;0;25;38,1285;100
52,295;24,571;3,215;12,58;3,242;0,154;0,245;0,27;393,8;2,389;0;294;126;966;810,6;1776,6;165;66;165;11,5;30;16,8;151,485;0;25;26,2011;111
52,295;24,571;3,215;12,58;3,242;0,154;0,245;0,27;393,8;2,389;0;294;126;966;810,6;1776,6;180;72;180;11,5;30;16,8;164,34;0;25;25,0279;154
52,295;24,571;3,215;12,58;3,242;0,154;0,245;0,27;393,8;2,389;0;315;135;972;760,5;1732,5;144,6428571;57,85714286;144,6428571;11,5;30;18;134,7589286;0;25;33,8562;78
52,295;24,571;3,215;12,58;3,242;0,154;0,245;0,27;393,8;2,389;0;315;135;972;760,5;1732,5;160,7142857;64,28571429;160,7142857;11,5;30;18;148,5321429;0;25;38,8889;92
52,295;24,571;3,215;12,58;3,242;0,154;0,245;0,27;393,8;2,389;0;315;135;972;760,5;1732,5;176,7857143;70,71428571;176,7857143;11,5;30;18;162,3053571;0;25;25,6209;107
52,295;24,571;3,215;12,58;3,242;0,154;0,245;0,27;393,8;2,389;0;315;135;972;760,5;1732,5;192,8571429;77,14285714;192,8571429;11,5;30;18;176,0785714;0;25;20,5882;146
49,69;23,918;2,87;15,44;3,906;0,132;0,21;0,36;398,4;2,462;0;216;144;1090,8;774;1864,8;115,7142857;46,28571429;115,7142857;11,5;30;14,4;107,8071429;0;25;42,2961;125
49,69;23,918;2,87;15,44;3,906;0,132;0,21;0,36;398,4;2,462;0;216;144;1090,8;774;1864,8;128,5714286;51,42857143;128,5714286;11,5;30;14,4;118,8257143;0;25;48,006;136
49,69;23,918;2,87;15,44;3,906;0,132;0,21;0,36;398,4;2,462;0;216;144;1090,8;774;1864,8;141,4285714;56,57142857;141,4285714;11,5;30;14,4;129,8442857;0;25;46,7372;142
49,69;23,918;2,87;15,44;3,906;0,132;0,21;0,36;398,4;2,462;0;216;144;1090,8;774;1864,8;154,2857143;61,71428571;154,2857143;11,5;30;14,4;140,8628571;0;25;43,3535;194
49,69;23,918;2,87;15,44;3,906;0,132;0,21;0,36;398,4;2,462;0;252;168;966;810,6;1776,6;135;54;135;11,5;30;16,8;125,775;0;25;46,1453;102
49,69;23,918;2,87;15,44;3,906;0,132;0,21;0,36;398,4;2,462;0;252;168;966;810,6;1776,6;150;60;150;11,5;30;16,8;138,63;0;25;51,4246;115
49,69;23,918;2,87;15,44;3,906;0,132;0,21;0,36;398,4;2,462;0;252;168;966;810,6;1776,6;165;66;165;11,5;30;16,8;151,485;0;25;44,581;135
49,69;23,918;2,87;15,44;3,906;0,132;0,21;0,36;398,4;2,462;0;252;168;966;810,6;1776,6;180;72;180;11,5;30;16,8;164,34;0;25;46,5363;170
49,69;23,918;2,87;15,44;3,906;0,132;0,21;0,36;398,4;2,462;0;270;180;972;760,5;1732,5;144,6428571;57,85714286;144,6428571;11,5;30;18;134,7589286;0;25;45,7516;83
49,69;23,918;2,87;15,44;3,906;0,132;0,21;0,36;398,4;2,462;0;270;180;972;760,5;1732,5;160,7142857;64,28571429;160,7142857;11,5;30;18;148,5321429;0;25;50,7843;106
49,69;23,918;2,87;15,44;3,906;0,132;0,21;0,36;398,4;2,462;0;270;180;972;760,5;1732,5;176,7857143;70,71428571;176,7857143;11,5;30;18;162,3053571;0;25;41,8627;118
49,69;23,918;2,87;15,44;3,906;0,132;0,21;0,36;398,4;2,462;0;270;180;972;760,5;1732,5;192,8571429;77,14285714;192,8571429;11,5;30;18;176,0785714;0;25;45,7516;155
47,085;23,265;2,525;18,3;4,57;0,11;0,175;0,45;403;2,535;0;180;180;1090,8;774;1864,8;115,7142857;46,28571429;115,7142857;11,5;30;14,4;107,8071429;0;25;55,4079;175
47,085;23,265;2,525;18,3;4,57;0,11;0,175;0,45;403;2,535;0;180;180;1090,8;774;1864,8;128,5714286;51,42857143;128,5714286;11,5;30;14,4;118,8257143;0;25;59,6375;184
47,085;23,265;2,525;18,3;4,57;0,11;0,175;0,45;403;2,535;0;180;180;1090,8;774;1864,8;141,4285714;56,57142857;141,4285714;11,5;30;14,4;129,8442857;0;25;51,6012;195
47,085;23,265;2,525;18,3;4,57;0,11;0,175;0,45;403;2,535;0;180;180;1090,8;774;1864,8;154,2857143;61,71428571;154,2857143;11,5;30;14,4;140,8628571;0;25;46,5257;225
47,085;23,265;2,525;18,3;4,57;0,11;0,175;0,45;403;2,535;0;210;210;966;810,6;1776,6;135;54;135;11,5;30;16,8;125,775;0;25;56,7039;148
47,085;23,265;2,525;18,3;4,57;0,11;0,175;0,45;403;2,535;0;210;210;966;810,6;1776,6;150;60;150;11,5;30;16,8;138,63;0;25;60,419;162
47,085;23,265;2,525;18,3;4,57;0,11;0,175;0,45;403;2,535;0;210;210;966;810,6;1776,6;165;66;165;11,5;30;16,8;151,485;0;25;46,5363;171
47,085;23,265;2,525;18,3;4,57;0,11;0,175;0,45;403;2,535;0;210;210;966;810,6;1776,6;180;72;180;11,5;30;16,8;164,34;0;25;47,514;205
47,085;23,265;2,525;18,3;4,57;0,11;0,175;0,45;403;2,535;0;225;225;972;760,5;1732,5;144,6428571;57,85714286;144,6428571;11,5;30;18;134,7589286;0;25;48,9542;96
47,085;23,265;2,525;18,3;4,57;0,11;0,175;0,45;403;2,535;0;225;225;972;760,5;1732,5;160,7142857;64,28571429;160,7142857;11,5;30;18;148,5321429;0;25;58,3333;111
47,085;23,265;2,525;18,3;4,57;0,11;0,175;0,45;403;2,535;0;225;225;972;760,5;1732,5;176,7857143;70,71428571;176,7857143;11,5;30;18;162,3053571;0;25;48,4967;135
47,085;23,265;2,525;18,3;4,57;0,11;0,175;0,45;403;2,535;0;225;225;972;760,5;1732,5;192,8571429;77,14285714;192,8571429;11,5;30;18;176,0785714;0;25;47,5817;185
52,295;24,571;3,215;12,58;3,242;0,154;0,245;0,27;393,8;2,389;0;252;108;1090,8;774;1864,8;115,7142857;46,28571429;115,7142857;11,5;30;14,4;107,8071429;1;60;41,4502;95
52,295;24,571;3,215;12,58;3,242;0,154;0,245;0,27;393,8;2,389;0;252;108;1090,8;774;1864,8;128,5714286;51,42857143;128,5714286;11,5;30;14,4;118,8257143;1;60;42,5076;102
52,295;24,571;3,215;12,58;3,242;0,154;0,245;0,27;393,8;2,389;0;252;108;1090,8;774;1864,8;141,4285714;56,57142857;141,4285714;11,5;30;14,4;129,8442857;1;60;33,8369;115
52,295;24,571;3,215;12,58;3,242;0,154;0,245;0,27;393,8;2,389;0;252;108;1090,8;774;1864,8;154,2857143;61,71428571;154,2857143;11,5;30;14,4;140,8628571;1;60;28,5498;180
52,295;24,571;3,215;12,58;3,242;0,154;0,245;0,27;393,8;2,389;0;294;126;966;810,6;1776,6;135;54;135;11,5;30;16,8;125,775;1;60;40,4749;84
52,295;24,571;3,215;12,58;3,242;0,154;0,245;0,27;393,8;2,389;0;294;126;966;810,6;1776,6;150;60;150;11,5;30;16,8;138,63;1;60;43,6034;100
52,295;24,571;3,215;12,58;3,242;0,154;0,245;0,27;393,8;2,389;0;294;126;966;810,6;1776,6;165;66;165;11,5;30;16,8;151,485;1;60;31,0894;111
52,295;24,571;3,215;12,58;3,242;0,154;0,245;0,27;393,8;2,389;0;294;126;966;810,6;1776,6;180;72;180;11,5;30;16,8;164,34;1;60;26,7877;154
52,295;24,571;3,215;12,58;3,242;0,154;0,245;0,27;393,8;2,389;0;315;135;972;760,5;1732,5;144,6428571;57,85714286;144,6428571;11,5;30;18;134,7589286;1;60;38,6601;78
52,295;24,571;3,215;12,58;3,242;0,154;0,245;0,27;393,8;2,389;0;315;135;972;760,5;1732,5;160,7142857;64,28571429;160,7142857;11,5;30;18;148,5321429;1;60;44,3791;92
52,295;24,571;3,215;12,58;3,242;0,154;0,245;0,27;393,8;2,389;0;315;135;972;760,5;1732,5;176,7857143;70,71428571;176,7857143;11,5;30;18;162,3053571;1;60;35,2288;107
52,295;24,571;3,215;12,58;3,242;0,154;0,245;0,27;393,8;2,389;0;315;135;972;760,5;1732,5;192,8571429;77,14285714;192,8571429;11,5;30;18;176,0785714;1;60;29,5098;146
49,69;23,918;2,87;15,44;3,906;0,132;0,21;0,36;398,4;2,462;0;216;144;1090,8;774;1864,8;115,7142857;46,28571429;115,7142857;11,5;30;14,4;107,8071429;1;60;55,6193;125
49,69;23,918;2,87;15,44;3,906;0,132;0,21;0,36;398,4;2,462;0;216;144;1090,8;774;1864,8;128,5714286;51,42857143;128,5714286;11,5;30;14,4;118,8257143;1;60;57,3112;136
49,69;23,918;2,87;15,44;3,906;0,132;0,21;0,36;398,4;2,462;0;216;144;1090,8;774;1864,8;141,4285714;56,57142857;141,4285714;11,5;30;14,4;129,8442857;1;60;53,2931;142
49,69;23,918;2,87;15,44;3,906;0,132;0,21;0,36;398,4;2,462;0;216;144;1090,8;774;1864,8;154,2857143;61,71428571;154,2857143;11,5;30;14,4;140,8628571;1;60;51,1782;194
49,69;23,918;2,87;15,44;3,906;0,132;0,21;0,36;398,4;2,462;0;252;168;966;810,6;1776,6;135;54;135;11,5;30;16,8;125,775;1;60;58,8547;102
49,69;23,918;2,87;15,44;3,906;0,132;0,21;0,36;398,4;2,462;0;252;168;966;810,6;1776,6;150;60;150;11,5;30;16,8;138,63;1;60;62,1788;115
49,69;23,918;2,87;15,44;3,906;0,132;0,21;0,36;398,4;2,462;0;252;168;966;810,6;1776,6;165;66;165;11,5;30;16,8;151,485;1;60;58,8547;135
49,69;23,918;2,87;15,44;3,906;0,132;0,21;0,36;398,4;2,462;0;252;168;966;810,6;1776,6;180;72;180;11,5;30;16,8;164,34;1;60;56,7039;170
49,69;23,918;2,87;15,44;3,906;0,132;0,21;0,36;398,4;2,462;0;270;180;972;760,5;1732,5;144,6428571;57,85714286;144,6428571;11,5;30;18;134,7589286;1;60;56,732;83
49,69;23,918;2,87;15,44;3,906;0,132;0,21;0,36;398,4;2,462;0;270;180;972;760,5;1732,5;160,7142857;64,28571429;160,7142857;11,5;30;18;148,5321429;1;60;61,5359;106
49,69;23,918;2,87;15,44;3,906;0,132;0,21;0,36;398,4;2,462;0;270;180;972;760,5;1732,5;176,7857143;70,71428571;176,7857143;11,5;30;18;162,3053571;1;60;54,2157;118
49,69;23,918;2,87;15,44;3,906;0,132;0,21;0,36;398,4;2,462;0;270;180;972;760,5;1732,5;192,8571429;77,14285714;192,8571429;11,5;30;18;176,0785714;1;60;49,8693;155
47,085;23,265;2,525;18,3;4,57;0,11;0,175;0,45;403;2,535;0;180;180;1090,8;774;1864,8;115,7142857;46,28571429;115,7142857;11,5;30;14,4;107,8071429;1;60;61,9637;175
47,085;23,265;2,525;18,3;4,57;0,11;0,175;0,45;403;2,535;0;180;180;1090,8;774;1864,8;128,5714286;51,42857143;128,5714286;11,5;30;14,4;118,8257143;1;60;65,3474;184
47,085;23,265;2,525;18,3;4,57;0,11;0,175;0,45;403;2,535;0;180;180;1090,8;774;1864,8;141,4285714;56,57142857;141,4285714;11,5;30;14,4;129,8442857;1;60;53,5045;195
47,085;23,265;2,525;18,3;4,57;0,11;0,175;0,45;403;2,535;0;180;180;1090,8;774;1864,8;154,2857143;61,71428571;154,2857143;11,5;30;14,4;140,8628571;1;60;52,4471;225
47,085;23,265;2,525;18,3;4,57;0,11;0,175;0,45;403;2,535;0;210;210;966;810,6;1776,6;135;54;135;11,5;30;16,8;125,775;1;60;56,7039;148
47,085;23,265;2,525;18,3;4,57;0,11;0,175;0,45;403;2,535;0;210;210;966;810,6;1776,6;150;60;150;11,5;30;16,8;138,63;1;60;63,5475;162
47,085;23,265;2,525;18,3;4,57;0,11;0,175;0,45;403;2,535;0;210;210;966;810,6;1776,6;165;66;165;11,5;30;16,8;151,485;1;60;52,0112;171
47,085;23,265;2,525;18,3;4,57;0,11;0,175;0,45;403;2,535;0;210;210;966;810,6;1776,6;180;72;180;11,5;30;16,8;164,34;1;60;51,0335;205
47,085;23,265;2,525;18,3;4,57;0,11;0,175;0,45;403;2,535;0;225;225;972;760,5;1732,5;144,6428571;57,85714286;144,6428571;11,5;30;18;134,7589286;1;60;54,902;96
47,085;23,265;2,525;18,3;4,57;0,11;0,175;0,45;403;2,535;0;225;225;972;760,5;1732,5;160,7142857;64,28571429;160,7142857;11,5;30;18;148,5321429;1;60;61,9935;111
47,085;23,265;2,525;18,3;4,57;0,11;0,175;0,45;403;2,535;0;225;225;972;760,5;1732,5;176,7857143;70,71428571;176,7857143;11,5;30;18;162,3053571;1;60;54,2157;135
47,085;23,265;2,525;18,3;4,57;0,11;0,175;0,45;403;2,535;0;225;225;972;760,5;1732,5;192,8571429;77,14285714;192,8571429;11,5;30;18;176,0785714;1;60;53,7582;185
52,295;24,571;3,215;12,58;3,242;0,154;0,245;0,27;393,8;2,389;0;252;108;1090,844597;773,9554032;1864,8;115,7142857;46,28571429;115,7142857;11,5;30;14,4;107,8071429;0;25;33,83;95
52,295;24,571;3,215;12,58;3,242;0,154;0,245;0,27;393,8;2,389;0;259;111;1081,558448;775,8415522;1857,4;118,9285714;47,57142857;118,9285714;11,5;30;14,8;110,8017857;0;25;34,31;100
52,295;24,571;3,215;12,58;3,242;0,154;0,245;0,27;393,8;2,389;0;266;114;1070,455144;776,3448564;1846,8;122,1428571;48,85714286;122,1428571;11,5;30;15,2;113,7964286;0;25;34,79;105
52,295;24,571;3,215;12,58;3,242;0,154;0,245;0,27;393,8;2,389;0;273;117;1057,564014;775,435986;1833;125,3571429;50,14285714;125,3571429;11,5;30;15,6;116,7910714;0;25;35,27;110
52,295;24,571;3,215;12,58;3,242;0,154;0,245;0,27;393,8;2,389;0;280;120;1043,045024;772,954976;1816;128,5714286;51,42857143;128,5714286;11,5;30;16;119,7857143;0;25;35,76;115
52,295;24,571;3,215;12,58;3,242;0,154;0,245;0,27;393,8;2,389;0;287;123;1026,649881;769,150119;1795,8;131,7857143;52,71428571;131,7857143;11,5;30;16,4;122,7803571;0;25;36,24;120
52,295;24,571;3,215;12,58;3,242;0,154;0,245;0,27;393,8;2,389;0;294;126;1010,929815;765,670185;1776,6;135;54;135;11,5;30;16,8;125,775;0;25;36,69;125
52,295;24,571;3,215;12,58;3,242;0,154;0,245;0,27;393,8;2,389;0;301;129;967,961046;795,038954;1763;138,2142857;55,28571429;138,2142857;11,5;30;17,2;128,7696429;0;25;35,7;142
52,295;24,571;3,215;12,58;3,242;0,154;0,245;0,27;393,8;2,389;0;308;132;969,4600256;777,3399744;1746,8;141,4285714;56,57142857;141,4285714;11,5;30;17,6;131,7642857;0;25;34,89;160
52,295;24,571;3,215;12,58;3,242;0,154;0,245;0,27;393,8;2,389;0;315;135;971,9619525;760,5380475;1732,5;144,6428571;57,85714286;144,6428571;11,5;30;18;134,7589286;0;25;33,81;175
49,69;23,918;2,87;15,44;3,906;0,132;0,21;0,36;398,4;2,462;0;216;144;1090,844597;773,9554032;1864,8;115,7142857;46,28571429;115,7142857;11,5;30;14,4;107,8071429;0;25;42,32;84
49,69;23,918;2,87;15,44;3,906;0,132;0,21;0,36;398,4;2,462;0;222;148;1081,558448;775,8415522;1857,4;118,9285714;47,57142857;118,9285714;11,5;30;14,8;110,8017857;0;25;42,95;87
49,69;23,918;2,87;15,44;3,906;0,132;0,21;0,36;398,4;2,462;0;228;152;1070,455144;776,3448564;1846,8;122,1428571;48,85714286;122,1428571;11,5;30;15,2;113,7964286;0;25;43,58;90
49,69;23,918;2,87;15,44;3,906;0,132;0,21;0,36;398,4;2,462;0;234;156;1057,564014;775,435986;1833;125,3571429;50,14285714;125,3571429;11,5;30;15,6;116,7910714;0;25;44,21;93
49,69;23,918;2,87;15,44;3,906;0,132;0,21;0,36;398,4;2,462;0;240;160;1043,045024;772,954976;1816;128,5714286;51,42857143;128,5714286;11,5;30;16;119,7857143;0;25;44,85;96
49,69;23,918;2,87;15,44;3,906;0,132;0,21;0,36;398,4;2,462;0;246;164;1026,649881;769,150119;1795,8;131,7857143;52,71428571;131,7857143;11,5;30;16,4;122,7803571;0;25;45,48;99
49,69;23,918;2,87;15,44;3,906;0,132;0,21;0,36;398,4;2,462;0;252;168;1010,929815;765,670185;1776,6;135;54;135;11,5;30;16,8;125,775;0;25;46,08;102
49,69;23,918;2,87;15,44;3,906;0,132;0,21;0,36;398,4;2,462;0;258;172;967,961046;795,038954;1763;138,2142857;55,28571429;138,2142857;11,5;30;17,2;128,7696429;0;25;46,01;117
49,69;23,918;2,87;15,44;3,906;0,132;0,21;0,36;398,4;2,462;0;264;176;969,4600256;777,3399744;1746,8;141,4285714;56,57142857;141,4285714;11,5;30;17,6;131,7642857;0;25;45,96;133
49,69;23,918;2,87;15,44;3,906;0,132;0,21;0,36;398,4;2,462;0;270;180;971,9619525;760,5380475;1732,5;144,6428571;57,85714286;144,6428571;11,5;30;18;134,7589286;0;25;45,88;148
47,085;23,265;2,525;18,3;4,57;0,11;0,175;0,45;403;2,535;0;180;180;1090,844597;773,9554032;1864,8;115,7142857;46,28571429;115,7142857;11,5;30;14,4;107,8071429;0;25;55,37;78
47,085;23,265;2,525;18,3;4,57;0,11;0,175;0,45;403;2,535;0;185;185;1081,558448;775,8415522;1857,4;118,9285714;47,57142857;118,9285714;11,5;30;14,8;110,8017857;0;25;55,62;79
47,085;23,265;2,525;18,3;4,57;0,11;0,175;0,45;403;2,535;0;190;190;1070,455144;776,3448564;1846,8;122,1428571;48,85714286;122,1428571;11,5;30;15,2;113,7964286;0;25;55,85;80
47,085;23,265;2,525;18,3;4,57;0,11;0,175;0,45;403;2,535;0;195;195;1057,564014;775,435986;1833;125,3571429;50,14285714;125,3571429;11,5;30;15,6;116,7910714;0;25;56,11;81
47,085;23,265;2,525;18,3;4,57;0,11;0,175;0,45;403;2,535;0;200;200;1043,045024;772,954976;1816;128,5714286;51,42857143;128,5714286;11,5;30;16;119,7857143;0;25;56,36;81
47,085;23,265;2,525;18,3;4,57;0,11;0,175;0,45;403;2,535;0;205;205;1026,649881;769,150119;1795,8;131,7857143;52,71428571;131,7857143;11,5;30;16,4;122,7803571;0;25;56,62;82
47,085;23,265;2,525;18,3;4,57;0,11;0,175;0,45;403;2,535;0;210;210;1010,929815;765,670185;1776,6;135;54;135;11,5;30;16,8;125,775;0;25;56,86;83
47,085;23,265;2,525;18,3;4,57;0,11;0,175;0,45;403;2,535;0;215;215;967,961046;795,038954;1763;138,2142857;55,28571429;138,2142857;11,5;30;17,2;128,7696429;0;25;54,14;87
47,085;23,265;2,525;18,3;4,57;0,11;0,175;0,45;403;2,535;0;220;220;969,4600256;777,3399744;1746,8;141,4285714;56,57142857;141,4285714;11,5;30;17,6;131,7642857;0;25;51,9;92
47,085;23,265;2,525;18,3;4,57;0,11;0,175;0,45;403;2,535;0;225;225;971,9619525;760,5380475;1732,5;144,6428571;57,85714286;144,6428571;11,5;30;18;134,7589286;0;25;48,91;96
52,295;24,571;3,215;12,58;3,242;0,154;0,245;0,27;393,8;2,389;0;252;108;1090,844597;773,9554032;1864,8;128,5714286;51,42857143;128,5714286;11,5;30;14,4;118,8257143;0;25;36,19;102
52,295;24,571;3,215;12,58;3,242;0,154;0,245;0,27;393,8;2,389;0;259;111;1081,558448;775,8415522;1857,4;132,1428571;52,85714286;132,1428571;11,5;30;14,8;122,1264286;0;25;36,52;108
52,295;24,571;3,215;12,58;3,242;0,154;0,245;0,27;393,8;2,389;0;266;114;1070,455144;776,3448564;1846,8;135,7142857;54,28571429;135,7142857;11,5;30;15,2;125,4271429;0;25;36,85;113
52,295;24,571;3,215;12,58;3,242;0,154;0,245;0,27;393,8;2,389;0;273;117;1057,564014;775,435986;1833;139,2857143;55,71428571;139,2857143;11,5;30;15,6;128,7278571;0;25;37,18;119
52,295;24,571;3,215;12,58;3,242;0,154;0,245;0,27;393,8;2,389;0;280;120;1043,045024;772,954976;1816;142,8571429;57,14285714;142,8571429;11,5;30;16;132,0285714;0;25;37,52;125
52,295;24,571;3,215;12,58;3,242;0,154;0,245;0,27;393,8;2,389;0;287;123;1026,649881;769,150119;1795,8;146,4285714;58,57142857;146,4285714;11,5;30;16,4;135,3292857;0;25;37,85;130
52,295;24,571;3,215;12,58;3,242;0,154;0,245;0,27;393,8;2,389;0;294;126;1010,929815;765,670185;1776,6;150;60;150;11,5;30;16,8;138,63;0;25;38,16;136
52,295;24,571;3,215;12,58;3,242;0,154;0,245;0,27;393,8;2,389;0;301;129;967,961046;795,038954;1763;153,5714286;61,42857143;153,5714286;11,5;30;17,2;141,9307143;0;25;38,43;152
52,295;24,571;3,215;12,58;3,242;0,154;0,245;0,27;393,8;2,389;0;308;132;969,4600256;777,3399744;1746,8;157,1428571;62,85714286;157,1428571;11,5;30;17,6;145,2314286;0;25;38,66;168
52,295;24,571;3,215;12,58;3,242;0,154;0,245;0,27;393,8;2,389;0;315;135;971,9619525;760,5380475;1732,5;160,7142857;64,28571429;160,7142857;11,5;30;18;148,5321429;0;25;38,96;184
49,69;23,918;2,87;15,44;3,906;0,132;0,21;0,36;398,4;2,462;0;216;144;1090,844597;773,9554032;1864,8;128,5714286;51,42857143;128,5714286;11,5;30;14,4;118,8257143;0;25;47,92;100
49,69;23,918;2,87;15,44;3,906;0,132;0,21;0,36;398,4;2,462;0;222;148;1081,558448;775,8415522;1857,4;132,1428571;52,85714286;132,1428571;11,5;30;14,8;122,1264286;0;25;48,47;103
49,69;23,918;2,87;15,44;3,906;0,132;0,21;0,36;398,4;2,462;0;228;152;1070,455144;776,3448564;1846,8;135,7142857;54,28571429;135,7142857;11,5;30;15,2;125,4271429;0;25;47,91;105
49,69;23,918;2,87;15,44;3,906;0,132;0,21;0,36;398,4;2,462;0;234;156;1057,564014;775,435986;1833;139,2857143;55,71428571;139,2857143;11,5;30;15,6;128,7278571;0;25;48,75;108
49,69;23,918;2,87;15,44;3,906;0,132;0,21;0,36;398,4;2,462;0;240;160;1043,045024;772,954976;1816;142,8571429;57,14285714;142,8571429;11,5;30;16;132,0285714;0;25;49,59;110
49,69;23,918;2,87;15,44;3,906;0,132;0,21;0,36;398,4;2,462;0;246;164;1026,649881;769,150119;1795,8;146,4285714;58,57142857;146,4285714;11,5;30;16,4;135,3292857;0;25;50,43;113
49,69;23,918;2,87;15,44;3,906;0,132;0,21;0,36;398,4;2,462;0;252;168;1010,929815;765,670185;1776,6;150;60;150;11,5;30;16,8;138,63;0;25;51,22;115
49,69;23,918;2,87;15,44;3,906;0,132;0,21;0,36;398,4;2,462;0;258;172;967,961046;795,038954;1763;153,5714286;61,42857143;153,5714286;11,5;30;17,2;141,9307143;0;25;51,04;131
49,69;23,918;2,87;15,44;3,906;0,132;0,21;0,36;398,4;2,462;0;264;176;969,4600256;777,3399744;1746,8;157,1428571;62,85714286;157,1428571;11,5;30;17,6;145,2314286;0;25;50,89;146
49,69;23,918;2,87;15,44;3,906;0,132;0,21;0,36;398,4;2,462;0;270;180;971,9619525;760,5380475;1732,5;160,7142857;64,28571429;160,7142857;11,5;30;18;148,5321429;0;25;50,69;162
47,085;23,265;2,525;18,3;4,57;0,11;0,175;0,45;403;2,535;0;180;180;1090,844597;773,9554032;1864,8;128,5714286;51,42857143;128,5714286;11,5;30;14,4;118,8257143;0;25;59,79;92
47,085;23,265;2,525;18,3;4,57;0,11;0,175;0,45;403;2,535;0;185;185;1081,558448;775,8415522;1857,4;132,1428571;52,85714286;132,1428571;11,5;30;14,8;122,1264286;0;25;59,88;94
47,085;23,265;2,525;18,3;4,57;0,11;0,175;0,45;403;2,535;0;190;190;1070,455144;776,3448564;1846,8;135,7142857;54,28571429;135,7142857;11,5;30;15,2;125,4271429;0;25;59,98;97
47,085;23,265;2,525;18,3;4,57;0,11;0,175;0,45;403;2,535;0;195;195;1057,564014;775,435986;1833;139,2857143;55,71428571;139,2857143;11,5;30;15,6;128,7278571;0;25;60,08;99
47,085;23,265;2,525;18,3;4,57;0,11;0,175;0,45;403;2,535;0;200;200;1043,045024;772,954976;1816;142,8571429;57,14285714;142,8571429;11,5;30;16;132,0285714;0;25;60,18;101
47,085;23,265;2,525;18,3;4,57;0,11;0,175;0,45;403;2,535;0;205;205;1026,649881;769,150119;1795,8;146,4285714;58,57142857;146,4285714;11,5;30;16,4;135,3292857;0;25;60,28;104
47,085;23,265;2,525;18,3;4,57;0,11;0,175;0,45;403;2,535;0;210;210;1010,929815;765,670185;1776,6;150;60;150;11,5;30;16,8;138,63;0;25;60,38;106
47,085;23,265;2,525;18,3;4,57;0,11;0,175;0,45;403;2,535;0;215;215;967,961046;795,038954;1763;153,5714286;61,42857143;153,5714286;11,5;30;17,2;141,9307143;0;25;59,75;108
47,085;23,265;2,525;18,3;4,57;0,11;0,175;0,45;403;2,535;0;220;220;969,4600256;777,3399744;1746,8;157,1428571;62,85714286;157,1428571;11,5;30;17,6;145,2314286;0;25;59,23;109
47,085;23,265;2,525;18,3;4,57;0,11;0,175;0,45;403;2,535;0;225;225;971,9619525;760,5380475;1732,5;160,7142857;64,28571429;160,7142857;11,5;30;18;148,5321429;0;25;58,53;111
52,295;24,571;3,215;12,58;3,242;0,154;0,245;0,27;393,8;2,389;0;252;108;1090,844597;773,9554032;1864,8;141,4285714;56,57142857;141,4285714;11,5;30;14,4;129,8442857;0;25;31,11;115
52,295;24,571;3,215;12,58;3,242;0,154;0,245;0,27;393,8;2,389;0;259;111;1081,558448;775,8415522;1857,4;145,3571429;58,14285714;145,3571429;11,5;30;14,8;133,4510714;0;25;30,27;120
52,295;24,571;3,215;12,58;3,242;0,154;0,245;0,27;393,8;2,389;0;266;114;1070,455144;776,3448564;1846,8;149,2857143;59,71428571;149,2857143;11,5;30;15,2;137,0578571;0;25;29,43;124
52,295;24,571;3,215;12,58;3,242;0,154;0,245;0,27;393,8;2,389;0;273;117;1057,564014;775,435986;1833;153,2142857;61,28571429;153,2142857;11,5;30;15,6;140,6646429;0;25;28,6;129
52,295;24,571;3,215;12,58;3,242;0,154;0,245;0,27;393,8;2,389;0;280;120;1043,045024;772,954976;1816;157,1428571;62,85714286;157,1428571;11,5;30;16;144,2714286;0;25;27,77;133
52,295;24,571;3,215;12,58;3,242;0,154;0,245;0,27;393,8;2,389;0;287;123;1026,649881;769,150119;1795,8;161,0714286;64,42857143;161,0714286;11,5;30;16,4;147,8782143;0;25;26,95;138
52,295;24,571;3,215;12,58;3,242;0,154;0,245;0,27;393,8;2,389;0;294;126;1010,929815;765,670185;1776,6;165;66;165;11,5;30;16,8;151,485;0;25;26,17;142
52,295;24,571;3,215;12,58;3,242;0,154;0,245;0,27;393,8;2,389;0;301;129;967,961046;795,038954;1763;168,9285714;67,57142857;168,9285714;11,5;30;17,2;155,0917857;0;25;26,01;160
52,295;24,571;3,215;12,58;3,242;0,154;0,245;0,27;393,8;2,389;0;308;132;969,4600256;777,3399744;1746,8;172,8571429;69,14285714;172,8571429;11,5;30;17,6;158,6985714;0;25;25,88;177
52,295;24,571;3,215;12,58;3,242;0,154;0,245;0,27;393,8;2,389;0;315;135;971,9619525;760,5380475;1732,5;176,7857143;70,71428571;176,7857143;11,5;30;18;162,3053571;0;25;25,71;195
49,69;23,918;2,87;15,44;3,906;0,132;0,21;0,36;398,4;2,462;0;216;144;1090,844597;773,9554032;1864,8;141,4285714;56,57142857;141,4285714;11,5;30;14,4;129,8442857;0;25;46,87;111
49,69;23,918;2,87;15,44;3,906;0,132;0,21;0,36;398,4;2,462;0;222;148;1081,558448;775,8415522;1857,4;145,3571429;58,14285714;145,3571429;11,5;30;14,8;133,4510714;0;25;46,49;115
49,69;23,918;2,87;15,44;3,906;0,132;0,21;0,36;398,4;2,462;0;228;152;1070,455144;776,3448564;1846,8;149,2857143;59,71428571;149,2857143;11,5;30;15,2;137,0578571;0;25;46,12;119
49,69;23,918;2,87;15,44;3,906;0,132;0,21;0,36;398,4;2,462;0;234;156;1057,564014;775,435986;1833;153,2142857;61,28571429;153,2142857;11,5;30;15,6;140,6646429;0;25;45,75;123
49,69;23,918;2,87;15,44;3,906;0,132;0,21;0,36;398,4;2,462;0;240;160;1043,045024;772,954976;1816;157,1428571;62,85714286;157,1428571;11,5;30;16;144,2714286;0;25;45,38;127
49,69;23,918;2,87;15,44;3,906;0,132;0,21;0,36;398,4;2,462;0;246;164;1026,649881;769,150119;1795,8;161,0714286;64,42857143;161,0714286;11,5;30;16,4;147,8782143;0;25;45,02;131
49,69;23,918;2,87;15,44;3,906;0,132;0,21;0,36;398,4;2,462;0;252;168;1010,929815;765,670185;1776,6;165;66;165;11,5;30;16,8;151,485;0;25;44,67;135
49,69;23,918;2,87;15,44;3,906;0,132;0,21;0,36;398,4;2,462;0;258;172;967,961046;795,038954;1763;168,9285714;67,57142857;168,9285714;11,5;30;17,2;155,0917857;0;25;43,71;147
49,69;23,918;2,87;15,44;3,906;0,132;0,21;0,36;398,4;2,462;0;264;176;969,4600256;777,3399744;1746,8;172,8571429;69,14285714;172,8571429;11,5;30;17,6;158,6985714;0;25;42,91;159
49,69;23,918;2,87;15,44;3,906;0,132;0,21;0,36;398,4;2,462;0;270;180;971,9619525;760,5380475;1732,5;176,7857143;70,71428571;176,7857143;11,5;30;18;162,3053571;0;25;41,85;171
47,085;23,265;2,525;18,3;4,57;0,11;0,175;0,45;403;2,535;0;180;180;1090,844597;773,9554032;1864,8;141,4285714;56,57142857;141,4285714;11,5;30;14,4;129,8442857;0;25;51,61;107
47,085;23,265;2,525;18,3;4,57;0,11;0,175;0,45;403;2,535;0;185;185;1081,558448;775,8415522;1857,4;145,3571429;58,14285714;145,3571429;11,5;30;14,8;133,4510714;0;25;50,73;109
47,085;23,265;2,525;18,3;4,57;0,11;0,175;0,45;403;2,535;0;190;190;1070,455144;776,3448564;1846,8;149,2857143;59,71428571;149,2857143;11,5;30;15,2;137,0578571;0;25;49,86;111
47,085;23,265;2,525;18,3;4,57;0,11;0,175;0,45;403;2,535;0;195;195;1057,564014;775,435986;1833;153,2142857;61,28571429;153,2142857;11,5;30;15,6;140,6646429;0;25;49;113
47,085;23,265;2,525;18,3;4,57;0,11;0,175;0,45;403;2,535;0;200;200;1043,045024;772,954976;1816;157,1428571;62,85714286;157,1428571;11,5;30;16;144,2714286;0;25;48,14;114
47,085;23,265;2,525;18,3;4,57;0,11;0,175;0,45;403;2,535;0;205;205;1026,649881;769,150119;1795,8;161,0714286;64,42857143;161,0714286;11,5;30;16,4;147,8782143;0;25;47,28;116
47,085;23,265;2,525;18,3;4,57;0,11;0,175;0,45;403;2,535;0;210;210;1010,929815;765,670185;1776,6;165;66;165;11,5;30;16,8;151,485;0;25;46,48;118
47,085;23,265;2,525;18,3;4,57;0,11;0,175;0,45;403;2,535;0;215;215;967,961046;795,038954;1763;168,9285714;67,57142857;168,9285714;11,5;30;17,2;155,0917857;0;25;47,15;124
47,085;23,265;2,525;18,3;4,57;0,11;0,175;0,45;403;2,535;0;220;220;969,4600256;777,3399744;1746,8;172,8571429;69,14285714;172,8571429;11,5;30;17,6;158,6985714;0;25;47,71;129
47,085;23,265;2,525;18,3;4,57;0,11;0,175;0,45;403;2,535;0;225;225;971,9619525;760,5380475;1732,5;176,7857143;70,71428571;176,7857143;11,5;30;18;162,3053571;0;25;48,45;135
52,295;24,571;3,215;12,58;3,242;0,154;0,245;0,27;393,8;2,389;0;252;108;1090,844597;773,9554032;1864,8;154,2857143;61,71428571;154,2857143;11,5;30;14,4;140,8628571;0;25;25,71;180
52,295;24,571;3,215;12,58;3,242;0,154;0,245;0,27;393,8;2,389;0;259;111;1081,558448;775,8415522;1857,4;158,5714286;63,42857143;158,5714286;11,5;30;14,8;144,7757143;0;25;25,6;182
52,295;24,571;3,215;12,58;3,242;0,154;0,245;0,27;393,8;2,389;0;266;114;1070,455144;776,3448564;1846,8;162,8571429;65,14285714;162,8571429;11,5;30;15,2;148,6885714;0;25;25,5;185
52,295;24,571;3,215;12,58;3,242;0,154;0,245;0,27;393,8;2,389;0;273;117;1057,564014;775,435986;1833;167,1428571;66,85714286;167,1428571;11,5;30;15,6;152,6014286;0;25;25,4;187
52,295;24,571;3,215;12,58;3,242;0,154;0,245;0,27;393,8;2,389;0;280;120;1043,045024;772,954976;1816;171,4285714;68,57142857;171,4285714;11,5;30;16;156,5142857;0;25;25,3;189
52,295;24,571;3,215;12,58;3,242;0,154;0,245;0,27;393,8;2,389;0;287;123;1026,649881;769,150119;1795,8;175,7142857;70,28571429;175,7142857;11,5;30;16,4;160,4271429;0;25;25,2;192
52,295;24,571;3,215;12,58;3,242;0,154;0,245;0,27;393,8;2,389;0;294;126;1010,929815;765,670185;1776,6;180;72;180;11,5;30;16,8;164,34;0;25;25,11;194
52,295;24,571;3,215;12,58;3,242;0,154;0,245;0,27;393,8;2,389;0;301;129;967,961046;795,038954;1763;184,2857143;73,71428571;184,2857143;11,5;30;17,2;168,2528571;0;25;23,62;204
52,295;24,571;3,215;12,58;3,242;0,154;0,245;0,27;393,8;2,389;0;308;132;969,4600256;777,3399744;1746,8;188,5714286;75,42857143;188,5714286;11,5;30;17,6;172,1657143;0;25;22,4;215
52,295;24,571;3,215;12,58;3,242;0,154;0,245;0,27;393,8;2,389;0;315;135;971,9619525;760,5380475;1732,5;192,8571429;77,14285714;192,8571429;11,5;30;18;176,0785714;0;25;20,76;225
49,69;23,918;2,87;15,44;3,906;0,132;0,21;0,36;398,4;2,462;0;216;144;1090,844597;773,9554032;1864,8;154,2857143;61,71428571;154,2857143;11,5;30;14,4;140,8628571;0;25;43,38;154
49,69;23,918;2,87;15,44;3,906;0,132;0,21;0,36;398,4;2,462;0;222;148;1081,558448;775,8415522;1857,4;158,5714286;63,42857143;158,5714286;11,5;30;14,8;144,7757143;0;25;46,2;157
49,69;23,918;2,87;15,44;3,906;0,132;0,21;0,36;398,4;2,462;0;228;152;1070,455144;776,3448564;1846,8;162,8571429;65,14285714;162,8571429;11,5;30;15,2;148,6885714;0;25;46,27;159
49,69;23,918;2,87;15,44;3,906;0,132;0,21;0,36;398,4;2,462;0;234;156;1057,564014;775,435986;1833;167,1428571;66,85714286;167,1428571;11,5;30;15,6;152,6014286;0;25;46,35;162
49,69;23,918;2,87;15,44;3,906;0,132;0,21;0,36;398,4;2,462;0;240;160;1043,045024;772,954976;1816;171,4285714;68,57142857;171,4285714;11,5;30;16;156,5142857;0;25;46,42;165
49,69;23,918;2,87;15,44;3,906;0,132;0,21;0,36;398,4;2,462;0;246;164;1026,649881;769,150119;1795,8;175,7142857;70,28571429;175,7142857;11,5;30;16,4;160,4271429;0;25;46,5;167
49,69;23,918;2,87;15,44;3,906;0,132;0,21;0,36;398,4;2,462;0;252;168;1010,929815;765,670185;1776,6;180;72;180;11,5;30;16,8;164,34;0;25;46,57;170
49,69;23,918;2,87;15,44;3,906;0,132;0,21;0,36;398,4;2,462;0;258;172;967,961046;795,038954;1763;184,2857143;73,71428571;184,2857143;11,5;30;17,2;168,2528571;0;25;46,27;182
49,69;23,918;2,87;15,44;3,906;0,132;0,21;0,36;398,4;2,462;0;264;176;969,4600256;777,3399744;1746,8;188,5714286;75,42857143;188,5714286;11,5;30;17,6;172,1657143;0;25;46,01;193
49,69;23,918;2,87;15,44;3,906;0,132;0,21;0,36;398,4;2,462;0;270;180;971,9619525;760,5380475;1732,5;192,8571429;77,14285714;192,8571429;11,5;30;18;176,0785714;0;25;45,68;205
47,085;23,265;2,525;18,3;4,57;0,11;0,175;0,45;403;2,535;0;180;180;1090,844597;773,9554032;1864,8;154,2857143;61,71428571;154,2857143;11,5;30;14,4;140,8628571;0;25;46,68;146
47,085;23,265;2,525;18,3;4,57;0,11;0,175;0,45;403;2,535;0;185;185;1081,558448;775,8415522;1857,4;158,5714286;63,42857143;158,5714286;11,5;30;14,8;144,7757143;0;25;46,84;148
47,085;23,265;2,525;18,3;4,57;0,11;0,175;0,45;403;2,535;0;190;190;1070,455144;776,3448564;1846,8;162,8571429;65,14285714;162,8571429;11,5;30;15,2;148,6885714;0;25;46,98;149
47,085;23,265;2,525;18,3;4,57;0,11;0,175;0,45;403;2,535;0;195;195;1057,564014;775,435986;1833;167,1428571;66,85714286;167,1428571;11,5;30;15,6;152,6014286;0;25;47,13;151
47,085;23,265;2,525;18,3;4,57;0,11;0,175;0,45;403;2,535;0;200;200;1043,045024;772,954976;1816;171,4285714;68,57142857;171,4285714;11,5;30;16;156,5142857;0;25;47,28;152
47,085;23,265;2,525;18,3;4,57;0,11;0,175;0,45;403;2,535;0;205;205;1026,649881;769,150119;1795,8;175,7142857;70,28571429;175,7142857;11,5;30;16,4;160,4271429;0;25;47,43;154
47,085;23,265;2,525;18,3;4,57;0,11;0,175;0,45;403;2,535;0;210;210;1010,929815;765,670185;1776,6;180;72;180;11,5;30;16,8;164,34;0;25;47,57;155
47,085;23,265;2,525;18,3;4,57;0,11;0,175;0,45;403;2,535;0;215;215;967,961046;795,038954;1763;184,2857143;73,71428571;184,2857143;11,5;30;17,2;168,2528571;0;25;47,59;165
47,085;23,265;2,525;18,3;4,57;0,11;0,175;0,45;403;2,535;0;220;220;969,4600256;777,3399744;1746,8;188,5714286;75,42857143;188,5714286;11,5;30;17,6;172,1657143;0;25;47,61;175
47,085;23,265;2,525;18,3;4,57;0,11;0,175;0,45;403;2,535;0;225;225;971,9619525;760,5380475;1732,5;192,8571429;77,14285714;192,8571429;11,5;30;18;176,0785714;0;25;47,64;185